Folder: cellulose/rheology

File: fitting_dataP3 + P20.csv
0.01,0.327667,0.0141461
0.0147,0.395,0.0023094
0.0215,0.444,0.0043589
0.0316,0.429333,0.0112596
0.0464,0.394333,0.0154955
0.0681,0.363667,0.0128106
0.1,0.325,0.0121655
0.147,0.29,0.0106927
0.215,0.248,0.00866025
0.316,0.215333,0.00664162
0.464,0.187333,0.00520683
0.681,0.163333,0.00375648
1.0,0.142667,0.00290593
1.47,0.124,0.0023094
2.15,0.107,0.00173205
3.16,0.0916,0.00133167
4.64,0.0789,0.0010116
6.81,0.0675667,0.000751295
10.0,0.0578667,0.000664162
14.7,0.0492667,0.000466667
21.5,0.0418667,0.000352767
31.6,0.0355333,0.000272845
46.4,0.0301667,0.000185592
68.1,0.0256667,0.000133333
100.0,0.0219,0.0001
147.0,0.0186667,8.81917e-05
215.0,0.0159333,3.33333e-05
316.0,0.0137333,3.33333e-05
464.0,0.0118,0.0
681.0,0.0102333,3.33333e-05
1000.0,0.00891333,1.45297e-05

File: fitting_dataP3 + P40.csv
0.01,0.114867,0.0325917
0.0147,0.162633,0.058862
0.0215,0.222333,0.0664764
0.0316,0.217,0.0571664
0.0464,0.181667,0.0378124
0.0681,0.156,0.0215019
0.1,0.136667,0.0143101
0.147,0.126333,0.00881917
0.215,0.112667,0.00688799
0.316,0.1004,0.00465761
0.464,0.091,0.00376431
0.681,0.0821333,0.00284742
1.0,0.0745667,0.00217281
1.47,0.0673333,0.00175246
2.15,0.0599,0.0015308
3.16,0.0528,0.00130512
4.64,0.0469,0.00104083
6.81,0.0413,0.000873689
10.0,0.0364,0.00072111
14.7,0.0319,0.00061101
21.5,0.0279333,0.000491031
31.6,0.0244333,0.000392994
46.4,0.0213333,0.000338296
68.1,0.0186667,0.000272845
100.0,0.0163667,0.000218581
147.0,0.0143333,0.000185592
215.0,0.0126,0.000152753
316.0,0.0111,0.0001
464.0,0.00979667,8.21246e-05
681.0,0.00871,6.50641e-05
1000.0,0.00777333,4.91031e-05

File: fitting_dataP20 + P40.csv
0.01,-0.0569,0.0122415
0.0147,0.0589,0.0916621
0.0215,0.145737,0.155658
0.0316,0.159277,0.15589
0.0464,0.12744,0.128282
0.0681,0.125266,0.125734
0.1,0.096405,0.093595
0.147,0.06855,0.05845
0.215,0.0537,0.0428
0.316,0.0344,0.0231
0.464,0.02495,0.01245
0.681,0.0274,0.0141
1.0,0.0188,0.0047
1.47,0.01745,0.00315
2.15,0.01575,0.00165
3.16,0.015,0.0017
4.64,0.014,0.001
6.81,0.01315,0.00075
10.0,0.01245,0.00055
14.7,0.0116,0.0004
21.5,0.01075,0.00035
31.6,0.010005,0.000295
46.4,0.00923,0.00023
68.1,0.00852,0.00019
100.0,0.007815,0.000165
147.0,0.00718,0.00014
215.0,0.006585,0.000125
316.0,0.00605,0.00011
464.0,0.00555,0.0001
681.0,0.00517,9e-05
1000.0,0.00489,9e-05

File: fitting_dataP20.csv
0.01,0.0563,0.0610035
0.0147,0.0927,0.0631437
0.0215,0.0976667,0.0551437
0.0316,0.0551,0.0198611
0.0464,0.0340333,0.00347387
0.0681,0.0262667,0.00140515
0.1,0.0185667,0.00525907
0.147,0.0260333,0.00380541
0.215,0.0250333,0.00099387
0.316,0.0243,0.00181475
0.464,0.0240667,0.00126667
0.681,0.0238667,0.000656591
1.0,0.0234333,0.00117945
1.47,0.0226333,0.00103655
2.15,0.0212667,0.00103976
3.16,0.0201667,0.000742369
4.64,0.0191333,0.000676593
6.81,0.0177333,0.0005696
10.0,0.0165333,0.000517472
14.7,0.0152,0.000450925
21.5,0.0139333,0.000366667
31.6,0.0126667,0.000333333
46.4,0.0115333,0.000266667
68.1,0.0104533,0.000246667
100.0,0.00943667,0.000203661
147.0,0.00854,0.00018037
215.0,0.00772333,0.00016231
316.0,0.00699667,0.000144376
464.0,0.00635,0.000121244
681.0,0.00582667,0.000114649
1000.0,0.00542,9.71253e-05

File: fitting_dataP40.csv
0.01,-0.0236367,0.0156795
0.0147,-0.000503333,0.0125395
0.0215,0.0462333,0.0110599
0.0316,0.0323333,0.00597281
0.0464,0.0176333,0.00387054
0.0681,0.00835333,0.000767514
0.1,0.00673667,0.00101327
0.147,0.0127667,0.000328295
0.215,0.00916,0.000920887
0.316,0.00901333,0.000700484
0.464,0.00962333,0.000381066
0.681,0.00985333,0.000232188
1.0,0.0109333,0.000272845
1.47,0.011,0.000152753
2.15,0.0108,0.000152753
3.16,0.01023,0.000123423
4.64,0.0102233,0.000129915
6.81,0.00987,9.50438e-05
10.0,0.00963333,8.83805e-05
14.7,0.00921333,8.29324e-05
21.5,0.00874,7.2111e-05
31.6,0.00826333,6.33333e-05
46.4,0.00776667,5.60753e-05
68.1,0.00728333,4.97773e-05
100.0,0.00676667,4.09607e-05
147.0,0.0063,3.78594e-05
215.0,0.00584667,3.1798e-05
316.0,0.00542,2.88675e-05
464.0,0.00502333,2.60342e-05
681.0,0.00472667,2.33333e-05
1000.0,0.00453667,2.33333e-05