Folder: cellulose/rheology/fitting_data

File: P3.csv
0.00999,4.915,0.785
0.01,3.92,nan
0.0147,6.17,0.520513
0.0215,7.49333,0.254711
0.0316,9.58667,0.556816
0.0464,11.1667,0.800694
0.0681,9.79,0.578878
0.1,6.78667,0.284156
0.147,4.70333,0.13776
0.215,3.45667,0.110504
0.316,2.57,0.0873689
0.464,1.92,0.0793725
0.681,1.42667,0.0578312
1.0,1.063,0.044411
1.47,0.781333,0.0346715
2.15,0.576333,0.0266229
3.16,0.426333,0.0192209
4.64,0.316667,0.014345
6.81,0.236667,0.0103333
10.0,0.178667,0.00783865
14.7,0.136333,0.005696
21.5,0.104433,0.0040769
31.6,0.0809667,0.00318608
46.4,0.0630333,0.00242304
68.1,0.0494,0.00176163
100.0,0.039,0.0012897
147.0,0.0310667,0.000902466
215.0,0.0250667,0.000638575
316.0,0.0205,0.00046188
464.0,0.0169667,0.00034801
681.0,0.0141667,0.000290593
1000.0,0.0119333,0.000202759